Composition,
Date Added,2022-04-27 20:00:03.853719
Formula,
Grain Size,
Locality,
Minimum Wavelength,229.0
Sample Name,Hematite
Maximum Wavelength,2976.0
Database of Origin,USGS Spectral Database
Other Information,
References,
Resolution,
Material Class,Oxide
Sample Description,See USGS database for additional info
Sample ID,Hematite_gds69.9480
Original Sample ID,
Sample Type,None
Viewing Geometry,
Wavelength,Response
229.1,0.116139
236.1,0.112272
242.1,0.099774
248.1,0.095751
253.6,0.096015
258.6,0.09331
263.6,0.095027
268.6,0.092669
273.1,0.091207
277.1,0.093841
281.1,0.091541
285.1,0.09117
289.1,0.09238
293.1,0.09171
297.1,0.090419
301.1,0.090503
305.1,0.089175
309.1,0.08857
313.1,0.086653
317.1,0.085751
321.1,0.084544
325.1,0.082862
329.1,0.079992
333.1,0.079662
337.1,0.076072
341.1,0.075694
345.1,0.074343
349.1,0.074494
353.1,0.074639
357.1,0.075327
360.6,0.076128
363.6,0.07694
366.6,0.078984
369.6,0.078435
372.6,0.079454
375.6,0.08043
378.6,0.081136
381.1,0.082366
383.1,0.082683
385.1,0.083511
387.1,0.083941
389.1,0.084203
391.1,0.084748
393.1,0.085682
395.1,0.086303
397.1,0.087339
399.1,0.086543
401.1,0.086811
403.1,0.08751
405.1,0.08839
407.1,0.087891
409.1,0.088155
411.1,0.088562
412.8,0.088526
415.8,0.08874
418.8,0.08875
421.8,0.089218
424.8,0.089674
427.8,0.088988
430.8,0.088705
433.8,0.088899
436.8,0.088672
439.8,0.089049
442.8,0.087835
445.8,0.087601
448.8,0.086832
451.3,0.08679
453.3,0.085652
455.3,0.085825
457.3,0.085446
459.3,0.085387
461.3,0.085164
463.3,0.084512
465.3,0.084154
467.3,0.083685
469.3,0.083543
471.3,0.083659
473.3,0.083128
475.3,0.082415
477.3,0.082473
479.3,0.082272
481.3,0.083258
483.3,0.081849
485.3,0.081189
487.3,0.082623
489.3,0.081268
491.3,0.08159
493.3,0.082388
495.3,0.081134
497.3,0.080905
499.3,0.080873
501.3,0.080576
503.3,0.080258
505.3,0.080595
507.3,0.080296
509.3,0.080047
511.3,0.080187
513.3,0.079566
515.3,0.080076
517.3,0.080283
519.3,0.079964
521.3,0.080292
523.3,0.080317
525.3,0.080341
527.3,0.080385
529.3,0.080531
531.3,0.08047
533.3,0.080537
535.3,0.081046
537.3,0.080733
539.3,0.081112
541.3,0.081186
543.3,0.081177
545.3,0.080141
547.3,0.080957
549.3,0.080543
551.3,0.080825
553.3,0.080231
555.3,0.080591
557.3,0.080505
559.3,0.080239
561.3,0.079672
563.3,0.080049
565.3,0.079482
567.3,0.079465
569.3,0.079182
571.3,0.079834
573.3,0.078486
575.3,0.079525
577.3,0.077901
579.3,0.077987
581.3,0.078117
583.3,0.07769
585.3,0.078163
587.3,0.077494
589.3,0.077719
591.3,0.077292
593.3,0.077215
595.3,0.077126
597.3,0.076904
599.3,0.078205
601.1,0.077032
602.7,0.076926
604.3,0.076644
605.9,0.076903
607.5,0.076579
609.1,0.076188
610.7,0.076447
612.3,0.07653
613.9,0.077324
615.5,0.076308
617.1,0.076476
618.7,0.076267
620.3,0.07587
621.9,0.076027
623.5,0.075812
625.1,0.07678
626.7,0.075628
628.3,0.075517
629.9,0.075791
631.7,0.076592
633.7,0.075195
635.7,0.075521
637.7,0.075513
639.7,0.075012
641.7,0.074656
643.7,0.075123
645.7,0.074917
647.7,0.075023
649.7,0.075265
651.7,0.075062
653.7,0.076382
655.7,0.074877
657.7,0.074814
659.7,0.07492
661.7,0.074613
663.7,0.074923
665.7,0.074862
667.7,0.074914
670.2,0.074953
673.2,0.074538
676.2,0.076093
679.2,0.073954
682.2,0.075312
685.2,0.075287
688.2,0.075358
691.2,0.075806
694.2,0.0758
697.2,0.076079
700.2,0.075373
702.0,0.076454
704.0,0.076003
706.0,0.076823
708.0,0.075944
710.0,0.077224
712.0,0.077563
714.0,0.077505
716.0,0.078038
718.0,0.077948
720.0,0.079373
722.0,0.078592
724.0,0.078476
726.0,0.07925
728.0,0.079163
730.0,0.079101
732.0,0.079529
734.0,0.079581
736.0,0.079887
738.0,0.079013
740.0,0.082356
742.0,0.079932
744.0,0.07737
746.0,0.079441
748.0,0.081215
750.5,0.079864
753.5,0.078779
756.5,0.079176
759.5,0.078715
762.5,0.077943
765.5,0.078155
768.5,0.08006
771.5,0.077541
774.5,0.077283
777.5,0.076856
781.0,0.076494
785.0,0.076158
789.0,0.077863
793.0,0.074012
797.0,0.074912
801.5,0.075276
806.5,0.074709
811.5,0.074195
816.5,0.073753
822.0,0.073536
828.0,0.073431
835.0,0.073024
843.0,0.072505
851.0,0.072669
859.0,0.077548
871.0,0.075959
883.0,0.074814
894.0,0.071819
904.0,0.077616
914.0,0.074287
924.0,0.074221
933.0,0.074125
941.0,0.076495
949.0,0.074985
957.0,0.078918
964.0,0.077024
970.0,0.079739
976.0,0.081632
982.0,0.087014
988.0,0.086685
994.0,0.088542
1000.0,0.092554
1006.0,0.098853
1012.0,0.098349
1018.0,0.100498
1023.5,0.103082
1028.5,0.105967
1033.5,0.109409
1038.5,0.111863
1043.5,0.112348
1048.5,0.114527
1053.5,0.119426
1058.5,0.11852
1063.5,0.120633
1068.5,0.123961
1073.5,0.126522
1078.5,0.129511
1083.5,0.130759
1088.5,0.134298
1093.5,0.135737
1098.5,0.138052
1103.5,0.140622
1108.5,0.143032
1113.5,0.143609
1118.5,0.146627
1123.5,0.147993
1128.5,0.150581
1133.5,0.155608
1138.5,0.157572
1143.5,0.159931
1148.5,0.160655
1153.5,0.162808
1158.5,0.166827
1163.5,0.166954
1168.5,0.166935
1173.5,0.168836
1178.5,0.171553
1183.5,0.173996
1188.5,0.175719
1193.5,0.174541
1198.5,0.1773
1203.5,0.176467
1208.5,0.177381
1213.5,0.178244
1218.5,0.179762
1223.5,0.17923
1228.5,0.178174
1233.5,0.178627
1238.5,0.178189
1243.5,0.179456
1248.5,0.17993
1253.5,0.178244
1258.5,0.179662
1263.5,0.180066
1268.5,0.181144
1273.5,0.180741
1278.5,0.181097
1283.5,0.17898
1288.5,0.180442
1293.5,0.179064
1298.5,0.18032
1303.5,0.179528
1308.5,0.180802
1313.5,0.177655
1318.5,0.179549
1323.5,0.178718
1328.5,0.179035
1333.5,0.179827
1338.5,0.180129
1343.5,0.178644
1348.5,0.179868
1353.5,0.179071
1358.5,0.177471
1363.5,0.17888
1368.5,0.178526
1373.5,0.180862
1378.5,0.179992
1383.5,0.180212
1388.5,0.179666
1393.5,0.179523
1398.5,0.179609
1403.5,0.182242
1408.5,0.182804
1413.5,0.179767
1418.5,0.17775
1423.5,0.182667
1428.5,0.179511
1433.5,0.181787
1438.5,0.181426
1443.5,0.182114
1448.5,0.180427
1453.5,0.181662
1458.5,0.182727
1463.5,0.181388
1468.5,0.182228
1473.5,0.182547
1478.5,0.182076
1483.5,0.182534
1488.5,0.183816
1493.5,0.184089
1498.5,0.182983
1503.5,0.185146
1508.5,0.185847
1513.5,0.186086
1518.5,0.186906
1523.5,0.183016
1528.5,0.184227
1534.0,0.185549
1540.0,0.18484
1546.0,0.184448
1552.0,0.183425
1558.0,0.186052
1564.0,0.185604
1570.5,0.185564
1577.5,0.187335
1584.5,0.187837
1591.5,0.189039
1598.5,0.190091
1605.5,0.188684
1612.5,0.188943
1619.5,0.190634
1626.5,0.190093
1633.5,0.190709
1640.5,0.191744
1647.5,0.190503
1654.5,0.18982
1661.5,0.193131
1668.5,0.193145
1676.0,0.192924
1684.0,0.19355
1692.0,0.195099
1700.0,0.196191
1708.0,0.194878
1716.0,0.199826
1724.0,0.197687
1732.0,0.197364
1740.0,0.200067
1748.0,0.195905
1756.0,0.200298
1764.0,0.199678
1772.0,0.201942
1780.0,0.203251
1788.0,0.207839
1796.0,0.200451
1805.0,0.203107
1815.0,0.205059
1825.0,0.204026
1835.0,0.205337
1845.0,0.206222
1855.0,0.208788
1865.0,0.207046
1875.0,0.211622
1885.0,0.208174
1895.0,0.208977
1905.0,0.209385
1915.0,0.211546
1925.0,0.214533
1935.0,0.213747
1945.0,0.214885
1955.0,0.21748
1965.0,0.217609
1975.0,0.219351
1985.0,0.220593
1995.0,0.22153
2005.0,0.22082
2015.0,0.221123
2025.0,0.220758
2035.0,0.225263
2045.0,0.226614
2055.0,0.224557
2065.0,0.228805
2075.0,0.231651
2085.0,0.236602
2095.0,0.231217
2105.0,0.23391
2115.0,0.238554
2125.0,0.235691
2135.0,0.23698
2145.0,0.2374
2155.0,0.237749
2165.0,0.235294
2175.0,0.240637
2185.0,0.238448
2195.0,0.241262
2205.0,0.239686
2215.0,0.243499
2225.0,0.244717
2235.0,0.246112
2245.0,0.246567
2255.0,0.247883
2265.0,0.248498
2275.0,0.249449
2285.0,0.248106
2295.0,0.252201
2305.0,0.244962
2315.0,0.253248
2325.0,0.253307
2335.0,0.257386
2345.0,0.257717
2355.0,0.256457
2365.0,0.258753
2375.0,0.255264
2386.0,0.256581
2400.0,0.258288
2418.0,0.259723
2440.0,0.264955
2466.0,0.264799
2496.0,0.268329
2528.0,0.271423
2560.0,0.271265
2592.0,0.273516
2624.0,0.277611
2656.0,0.277858
2688.0,0.262952
2720.0,0.237217
2752.0,0.202174
2784.0,0.194455
2816.0,0.186501
2848.0,0.169688
2880.0,0.168757
2912.0,0.175945
2944.0,0.179172
2976.0,0.152444