Composition,
Date Added,2022-04-27 20:00:03.692741
Formula,
Grain Size,
Locality,
Minimum Wavelength,229.0
Sample Name,Hematite
Maximum Wavelength,2976.0
Database of Origin,USGS Spectral Database
Other Information,
References,
Resolution,
Material Class,Oxide
Sample Description,See USGS database for additional info
Sample ID,Hematite_gds69.9297
Original Sample ID,
Sample Type,None
Viewing Geometry,
Wavelength,Response
229.1,0.110348
236.1,0.101913
242.1,0.096692
248.1,0.096333
253.6,0.100187
258.6,0.094182
263.6,0.102045
268.6,0.097293
273.1,0.094077
277.1,0.094174
281.1,0.105388
285.1,0.092517
289.1,0.089222
293.1,0.089441
297.1,0.088303
301.1,0.086558
305.1,0.085497
309.1,0.084004
313.1,0.086737
317.1,0.084539
321.1,0.086084
325.1,0.081213
329.1,0.080489
333.1,0.074766
337.1,0.077739
341.1,0.072548
345.1,0.075869
349.1,0.074876
353.1,0.074809
357.1,0.073958
360.6,0.075737
363.6,0.076388
366.6,0.077324
369.6,0.077284
372.6,0.079147
375.6,0.07991
378.6,0.081145
381.1,0.081128
383.1,0.080636
385.1,0.082844
387.1,0.085207
389.1,0.083706
391.1,0.083438
393.1,0.084636
395.1,0.085196
397.1,0.084951
399.1,0.085857
401.1,0.085374
403.1,0.087855
405.1,0.086326
407.1,0.086944
409.1,0.087208
411.1,0.092783
412.8,0.087665
415.8,0.08762
418.8,0.08737
421.8,0.088182
424.8,0.088121
427.8,0.087954
430.8,0.088101
433.8,0.087692
436.8,0.087896
439.8,0.088618
442.8,0.086973
445.8,0.086307
448.8,0.085703
451.3,0.085487
453.3,0.084573
455.3,0.085006
457.3,0.08443
459.3,0.083583
461.3,0.08255
463.3,0.085296
465.3,0.082172
467.3,0.082642
469.3,0.082206
471.3,0.081908
473.3,0.080886
475.3,0.081708
477.3,0.081334
479.3,0.081547
481.3,0.080981
483.3,0.080866
485.3,0.080655
487.3,0.080615
489.3,0.079672
491.3,0.080073
493.3,0.080345
495.3,0.082489
497.3,0.079274
499.3,0.079804
501.3,0.079021
503.3,0.079567
505.3,0.078475
507.3,0.079649
509.3,0.078486
511.3,0.079367
513.3,0.079074
515.3,0.08099
517.3,0.077721
519.3,0.081188
521.3,0.078402
523.3,0.079058
525.3,0.079661
527.3,0.079341
529.3,0.079711
531.3,0.079805
533.3,0.078209
535.3,0.080071
537.3,0.080164
539.3,0.080146
541.3,0.079834
543.3,0.081263
545.3,0.080098
547.3,0.079917
549.3,0.081575
551.3,0.079898
553.3,0.079879
555.3,0.081553
557.3,0.080205
559.3,0.079741
561.3,0.079397
563.3,0.079646
565.3,0.079671
567.3,0.079628
569.3,0.079723
571.3,0.079628
573.3,0.080934
575.3,0.079731
577.3,0.078649
579.3,0.082922
581.3,0.078504
583.3,0.082221
585.3,0.083308
587.3,0.081302
589.3,0.081498
591.3,0.081943
593.3,0.082098
595.3,0.082674
597.3,0.082879
599.3,0.083268
601.1,0.08347
602.7,0.083488
604.3,0.083831
605.9,0.084499
607.5,0.084142
609.1,0.083569
610.7,0.088224
612.3,0.084608
613.9,0.084442
615.5,0.088451
617.1,0.084902
618.7,0.08412
620.3,0.087572
621.9,0.084813
623.5,0.085591
625.1,0.086295
626.7,0.085057
628.3,0.087221
629.9,0.084468
631.7,0.084943
633.7,0.08515
635.7,0.085103
637.7,0.08517
639.7,0.087193
641.7,0.085048
643.7,0.086749
645.7,0.084413
647.7,0.087562
649.7,0.084635
651.7,0.087807
653.7,0.085728
655.7,0.088091
657.7,0.085868
659.7,0.08571
661.7,0.085558
663.7,0.085717
665.7,0.086605
667.7,0.08599
670.2,0.086472
673.2,0.08669
676.2,0.086783
679.2,0.087361
682.2,0.087236
685.2,0.088071
688.2,0.088014
691.2,0.087547
694.2,0.088794
697.2,0.089576
700.2,0.089033
702.0,0.092145
704.0,0.090371
706.0,0.090567
708.0,0.090093
710.0,0.091395
712.0,0.091434
714.0,0.090556
716.0,0.092141
718.0,0.091954
720.0,0.092387
722.0,0.092241
724.0,0.092918
726.0,0.093061
728.0,0.092337
730.0,0.092573
732.0,0.092552
734.0,0.092069
736.0,0.093435
738.0,0.091989
740.0,0.093579
742.0,0.093898
744.0,0.092577
746.0,0.09378
748.0,0.092659
750.5,0.093848
753.5,0.09153
756.5,0.093132
759.5,0.093142
762.5,0.092646
765.5,0.092442
768.5,0.0911
771.5,0.090436
774.5,0.091965
777.5,0.090979
781.0,0.090875
785.0,0.093074
789.0,0.089149
793.0,0.089209
797.0,0.088324
801.5,0.091089
806.5,0.086948
811.5,0.087313
816.5,0.086885
822.0,0.086734
828.0,0.08528
835.0,0.085906
843.0,0.085019
851.0,0.089601
859.0,0.08857
871.0,0.087627
883.0,0.090479
894.0,0.085828
904.0,0.087736
914.0,0.085866
924.0,0.085568
933.0,0.086847
941.0,0.087959
949.0,0.090106
957.0,0.088621
964.0,0.092202
970.0,0.091719
976.0,0.089508
982.0,0.090779
988.0,0.09511
994.0,0.094228
1000.0,0.094654
1006.0,0.097027
1012.0,0.097527
1018.0,0.098578
1023.5,0.101802
1028.5,0.104777
1033.5,0.103925
1038.5,0.102442
1043.5,0.104584
1048.5,0.106027
1053.5,0.105892
1058.5,0.107555
1063.5,0.108734
1068.5,0.109324
1073.5,0.10914
1078.5,0.110304
1083.5,0.109882
1088.5,0.109964
1093.5,0.112839
1098.5,0.113077
1103.5,0.11453
1108.5,0.114114
1113.5,0.116351
1118.5,0.116018
1123.5,0.116856
1128.5,0.119001
1133.5,0.118816
1138.5,0.120308
1143.5,0.121691
1148.5,0.122827
1153.5,0.123023
1158.5,0.123837
1163.5,0.123429
1168.5,0.124422
1173.5,0.125434
1178.5,0.126557
1183.5,0.124676
1188.5,0.129246
1193.5,0.126939
1198.5,0.127363
1203.5,0.127448
1208.5,0.127527
1213.5,0.126924
1218.5,0.128179
1223.5,0.127379
1228.5,0.128054
1233.5,0.127564
1238.5,0.128916
1243.5,0.128209
1248.5,0.128364
1253.5,0.126608
1258.5,0.126939
1263.5,0.126258
1268.5,0.12704
1273.5,0.125673
1278.5,0.12606
1283.5,0.126204
1288.5,0.126668
1293.5,0.127075
1298.5,0.125692
1303.5,0.125357
1308.5,0.125375
1313.5,0.124074
1318.5,0.124776
1323.5,0.123679
1328.5,0.125416
1333.5,0.125245
1338.5,0.123425
1343.5,0.123875
1348.5,0.123435
1353.5,0.125479
1358.5,0.125187
1363.5,0.124399
1368.5,0.12272
1373.5,0.122231
1378.5,0.122847
1383.5,0.125881
1388.5,0.123451
1393.5,0.122991
1398.5,0.124769
1403.5,0.122507
1408.5,0.121378
1413.5,0.12427
1418.5,0.124803
1423.5,0.122454
1428.5,0.121702
1433.5,0.12322
1438.5,0.123344
1443.5,0.123222
1448.5,0.121636
1453.5,0.123445
1458.5,0.122002
1463.5,0.123233
1468.5,0.122624
1473.5,0.123667
1478.5,0.123446
1483.5,0.12132
1488.5,0.121466
1493.5,0.121463
1498.5,0.122699
1503.5,0.123523
1508.5,0.122694
1513.5,0.120479
1518.5,0.124388
1523.5,0.121795
1528.5,0.123219
1534.0,0.12203
1540.0,0.123938
1546.0,0.121699
1552.0,0.123613
1558.0,0.12131
1564.0,0.123241
1570.5,0.122472
1577.5,0.122695
1584.5,0.122131
1591.5,0.120644
1598.5,0.123137
1605.5,0.121456
1612.5,0.123393
1619.5,0.121456
1626.5,0.122859
1633.5,0.121875
1640.5,0.124578
1647.5,0.123163
1654.5,0.12537
1661.5,0.122378
1668.5,0.124894
1676.0,0.124713
1684.0,0.123776
1692.0,0.126137
1700.0,0.124672
1708.0,0.126212
1716.0,0.124311
1724.0,0.122267
1732.0,0.124836
1740.0,0.12517
1748.0,0.125899
1756.0,0.124175
1764.0,0.126112
1772.0,0.125154
1780.0,0.125263
1788.0,0.126098
1796.0,0.126537
1805.0,0.126349
1815.0,0.125588
1825.0,0.125204
1835.0,0.127743
1845.0,0.127613
1855.0,0.127072
1865.0,0.12573
1875.0,0.126193
1885.0,0.124941
1895.0,0.12828
1905.0,0.12773
1915.0,0.126315
1925.0,0.126863
1935.0,0.129122
1945.0,0.128634
1955.0,0.126222
1965.0,0.12906
1975.0,0.12897
1985.0,0.130502
1995.0,0.130028
2005.0,0.129236
2015.0,0.129822
2025.0,0.13417
2035.0,0.131819
2045.0,0.135233
2055.0,0.132989
2065.0,0.133691
2075.0,0.133959
2085.0,0.132871
2095.0,0.135257
2105.0,0.137825
2115.0,0.136785
2125.0,0.136962
2135.0,0.13114
2145.0,0.135423
2155.0,0.137107
2165.0,0.1355
2175.0,0.134668
2185.0,0.135585
2195.0,0.137904
2205.0,0.136555
2215.0,0.139129
2225.0,0.142396
2235.0,0.137626
2245.0,0.139058
2255.0,0.140405
2265.0,0.13903
2275.0,0.140043
2285.0,0.138961
2295.0,0.142985
2305.0,0.143496
2315.0,0.141394
2325.0,0.142828
2335.0,0.143023
2345.0,0.14362
2355.0,0.141156
2365.0,0.147157
2375.0,0.145088
2386.0,0.147253
2400.0,0.145661
2418.0,0.144442
2440.0,0.145092
2466.0,0.147659
2496.0,0.14842
2528.0,0.149202
2560.0,0.147795
2592.0,0.150366
2624.0,0.149612
2656.0,0.14882
2688.0,0.138054
2720.0,0.134425
2752.0,0.090403
2784.0,0.109139
2816.0,0.089637
2848.0,0.082516
2880.0,0.098449
2912.0,0.083031
2944.0,0.088933
2976.0,0.110841